References: Micsonai et al. Nucleic Acids Res. 46:W315-22 (2018), Micsonai et al. PNAS 11:E3095-103 (2015)

Header
=======
Title:             tbut
Date/time:         15-01-2019 19:23:50
Wavelength range:  200-250 nm	
Scale factor:      1

Estimated secondary structure content (%)
==========================================
Helix1 (regular):        16.7
Helix2 (distorted):       9.4
Anti1 (left-twisted):     1.6
Anti2 (relaxed):          5.9
Anti3 (right-twisted):    8.4
Parallel:                 2.5
Turn:                    15.0
Others:                  40.5
--------------------------------
Helix:                   26.1
Antiparallel:            15.9
Parallel:                 2.5
Turn:                    15.0
Others:                  40.5

Spectral deviation
===================
RMSD:                  0.0278
NRMSD:                0.00751

Fitting results
================
Data units: Delta epsilon

Wavelength (nm) Experimental Fitted Residuals
200 -0.8744 -0.8433 -0.0311
201 -1.4609 -1.4976 0.0366
202 -2.0593 -2.1122 0.0529
203 -2.6522 -2.6356 -0.0165
204 -3.0973 -3.0649 -0.0325
205 -3.4039 -3.4026 -0.0012
206 -3.6043 -3.5971 -0.0072
207 -3.691 -3.674 -0.017
208 -3.6431 -3.6544 0.0113
209 -3.4976 -3.5337 0.0361
210 -3.3081 -3.3358 0.0277
211 -3.1458 -3.1123 -0.0335
212 -2.9809 -2.9323 -0.0486
213 -2.8408 -2.7909 -0.0499
214 -2.7152 -2.7218 0.0066
215 -2.6437 -2.6724 0.0287
216 -2.604 -2.6487 0.0447
217 -2.5784 -2.6419 0.0635
218 -2.58 -2.6094 0.0294
219 -2.58 -2.5675 -0.0125
220 -2.5735 -2.5424 -0.0311
221 -2.5493 -2.5041 -0.0452
222 -2.5292 -2.4788 -0.0504
223 -2.4846 -2.4762 -0.0084
224 -2.4133 -2.4262 0.0129
225 -2.3195 -2.343 0.0235
226 -2.2051 -2.2376 0.0325
227 -2.0881 -2.124 0.0359
228 -1.9532 -1.9661 0.013
229 -1.8059 -1.8162 0.0104
230 -1.6566 -1.6605 0.0038
231 -1.4947 -1.4846 -0.0101
232 -1.332 -1.3199 -0.0121
233 -1.1738 -1.1483 -0.0255
234 -1.0112 -0.9895 -0.0217
235 -0.8582 -0.85 -0.0083
236 -0.7174 -0.7191 0.0017
237 -0.5933 -0.5991 0.0057
238 -0.482 -0.5031 0.0212
239 -0.3934 -0.3931 -0.0003
240 -0.3169 -0.3114 -0.0055
241 -0.2544 -0.2462 -0.0082
242 -0.201 -0.1828 -0.0183
243 -0.1363 -0.1343 -0.0021
244 -0.0986 -0.1155 0.0169
245 -0.0703 -0.0728 0.0025
246 -0.0338 -0.0574 0.0236
247 -0.0106 -0.0599 0.0493
248 0.0006 -0.036 0.0366
249 0.0152 -0.01 0.0252
250 0.0065 0.0032 0.0033

Comments
=========
- File input mode.
! CD units are converted to delta epsilon.
- Maximum usable wavelength range: 200-250 nm.
