References: Micsonai et al. Nucleic Acids Res. 46:W315-22 (2018), Micsonai et al. PNAS 11:E3095-103 (2015)

Header
=======
Title:             water
Date/time:         15-01-2019 19:22:46
Wavelength range:  200-250 nm	
Scale factor:      1

Estimated secondary structure content (%)
==========================================
Helix1 (regular):         0.2
Helix2 (distorted):       1.5
Anti1 (left-twisted):     2.2
Anti2 (relaxed):         10.7
Anti3 (right-twisted):   11.6
Parallel:                 0.0
Turn:                    18.8
Others:                  55.0
--------------------------------
Helix:                    1.7
Antiparallel:            24.5
Parallel:                 0.0
Turn:                    18.8
Others:                  55.0

Spectral deviation
===================
RMSD:                  0.0452
NRMSD:                0.01694

Fitting results
================
Data units: Delta epsilon

Wavelength (nm) Experimental Fitted Residuals
200 -1.9409 -1.8707 -0.0702
201 -2.2967 -2.2513 -0.0454
202 -2.5637 -2.5328 -0.0309
203 -2.6876 -2.6587 -0.0289
204 -2.679 -2.6588 -0.0201
205 -2.5377 -2.5487 0.011
206 -2.3263 -2.3498 0.0235
207 -2.0549 -2.0907 0.0358
208 -1.8012 -1.8405 0.0393
209 -1.5342 -1.5986 0.0644
210 -1.303 -1.3832 0.0802
211 -1.1196 -1.081 -0.0386
212 -0.9551 -0.9445 -0.0107
213 -0.8215 -0.8271 0.0056
214 -0.7316 -0.7645 0.0329
215 -0.6552 -0.7176 0.0624
216 -0.6011 -0.6912 0.0902
217 -0.5571 -0.6664 0.1093
218 -0.5318 -0.6266 0.0948
219 -0.5227 -0.5778 0.0551
220 -0.5236 -0.5596 0.036
221 -0.5201 -0.5274 0.0072
222 -0.5245 -0.5338 0.0093
223 -0.5294 -0.5503 0.0209
224 -0.532 -0.5749 0.0428
225 -0.5332 -0.5938 0.0606
226 -0.5271 -0.5325 0.0054
227 -0.5109 -0.5375 0.0266
228 -0.4973 -0.48 -0.0173
229 -0.4783 -0.4497 -0.0286
230 -0.4533 -0.3739 -0.0793
231 -0.4276 -0.3702 -0.0574
232 -0.3994 -0.3629 -0.0366
233 -0.3688 -0.347 -0.0218
234 -0.3356 -0.3252 -0.0104
235 -0.3007 -0.3115 0.0107
236 -0.2615 -0.293 0.0315
237 -0.2328 -0.2624 0.0296
238 -0.1999 -0.2499 0.0501
239 -0.1696 -0.2144 0.0448
240 -0.142 -0.1889 0.0469
241 -0.1198 -0.1798 0.0601
242 -0.1019 -0.1546 0.0527
243 -0.0842 -0.1321 0.0479
244 -0.0683 -0.1193 0.051
245 -0.0564 -0.0745 0.0181
246 -0.0458 -0.051 0.0052
247 -0.0377 -0.0474 0.0098
248 -0.0262 -0.0398 0.0136
249 -0.0227 -0.0183 -0.0044
250 -0.0215 0.0035 -0.025

Comments
=========
- File input mode.
! CD units are converted to delta epsilon.
- Maximum usable wavelength range: 200-250 nm.
